"task","trial_type","trial_index","time_elapsed","internal_node_id","subject_id","study_id","session_id","section","width","height","webaudio","browser","browser_version","mobile","os","fullscreen","vsync_rate","webcam","microphone","rt","stimulus","response","success","timeout","failed_images","failed_audio","failed_video","block","choices","correct","accuracy","num_attention_checks_correct"
"pavlovia-init","pavlovia","0","1413","0.0-0.0","","","","1","","","","","","","","","","","","","","","","","","","","","","","",""
"browser-check","browser-check","1","2407","0.0-1.0","","","","1","1280","569","true","chrome","114.0.0","false","Windows 10","true","60.91","true","true","","","","","","","","","","","","",""
"consent","html-button-response","2","5818","0.0-2.0","","","","1","","","","","","","","","","","","3408","
        <div style=""font-size: 80%; max-width:700px"">
            <h2>Informed Consent</h2><br>

            <div style=""text-align: left"">
            <h3>__ name of study __</h3>
            <b>STUDY ID</b>
            <br><hr>

            <h4>DESCRIPTION</h4>
            <p>
                What it's about
            </p><br>

            <h4>TIME INVOLVEMENT</h4>
            <p>Your participation will take approximately __ minutes.</p><br>

            <h4>RISKS AND BENEFITS</h4>
            <p>
                The risks associated with this study are minimal. The benefits which may reasonably be expected to result from this study are none.  We cannot and do not guarantee or promise that you will receive any benefits from this study.
            </p><br>

            <h4>PAYMENTS</h4>
            <p>You will be paid <b>___</b> for your participation.</p><br>

            <h4>SUBJECT'S RIGHTS</h4>
            <p>
                If you have read this form and have decided to participate in this project, please understand your participation is voluntary and you have the right to withdraw your consent or discontinue participation at any time without penalty or loss of benefits to which you are otherwise entitled.  The alternative is not to participate.  You have the right to refuse to answer particular questions.
            </p>

            <p>
                Your individual privacy will be maintained in all published and written data resulting from the study. Your responses will be kept confidential: you are given a participant code, and no one, not even the research team, can match that code with your identity. Your collected information may also be shared with other researchers as part of our dataset.
            </p><br>

            <h4>CONTACT INFORMATION</h4>
            <p>
                Questions: If you have any questions, concerns or complaints about this research, its procedures, risks and benefits, contact the Protocol Director, Nicholas Camp, npcamp@umich.edu, (443) 851-6783.
            </p>

            <p>
                If you have questions about your rights as a research participant, or wish to obtain information, ask questions or discuss any concerns about this study with someone other than the researcher(s), please contact the following:
                <br><br>

                University of Michigan<br>
                Health Sciences and Behavioral Sciences Institutional Review Board
                (IRB-HSBS)<br>
                2800 Plymouth Road <br>
                Building 520, Room 1169 <br>
                Ann Arbor, MI 48109-2800 <br>
                Telephone: 734-936-0933 or toll free (866) 936-0933 <br>
                Fax: 734-936-1852 <br />
                E-mail: irbhsbs@umich.edu <br>
            </p>

            <p>
                You can also contact the University of Michigan Compliance Hotline at 1-866-990-0111. You may also print this consent form to keep.
            </p>
            <br>

            <div class=""alert alert-warning""><b>
                Do you consent to participate in this study? If you consent to participate in this study, please click “Accept and continue.”
            </b></div>
            </div>
        </div>
    ","1","","","","","","","","","",""
"","preload","3","6048","0.0-3.0","","","","1","","","","","","","","","","","","","","","true","false","[]","[]","[]","","","","",""
"instructions","html-button-response","4","6786","0.0-4.0","","","","1","","","","","","","","","","","","737","
        <div class=""text-container"">
            <h1>Welcome to the study!</h1>

            <div class=""text-left"">
                <p>???</p>
            </div>
        <br>
    ","0","","","","","","","","","",""
"instructions","html-button-response","5","7622","0.0-5.0","","","","1","","","","","","","","","","","","833","
        <div class=""text-container"">
            <div class=""text-left"">
                <p>Please remember that your answers are completely anonymous (we can't trace them back to your name). Please answer as honestly as you can.</p>
            </div>
        <br>
    ","0","","","","","","","","","",""
"street view slide show","image-button-response","6","8642","0.0-6.0","","","","1","","","","","","","","","","","","null","stimulus/SampleStimulus5.png","null","","","","","","2","","","",""
"street view slide show","image-button-response","7","9651","0.0-7.0","","","","1","","","","","","","","","","","","null","stimulus/SampleStimulus6.png","null","","","","","","2","","","",""
"street view slide show","image-button-response","8","10658","0.0-8.0","","","","1","","","","","","","","","","","","null","stimulus/SampleStimulus7.png","null","","","","","","2","","","",""
"street view slide show","image-button-response","9","11667","0.0-9.0","","","","1","","","","","","","","","","","","null","stimulus/SampleStimulus8.png","null","","","","","","2","","","",""
"page after slideshow","survey-text","10","13121","0.0-10.0","","","","1","","","","","","","","","","","","1448","[""SampleStimulus5.png"",""SampleStimulus6.png"",""SampleStimulus7.png"",""SampleStimulus8.png""]","{""Q0"":""""}","","","","","","2","","","",""
"best-RC","html-button-response","11","13831","0.0-11.0","","","","1","","","","","","","","","","","","705","[""SampleStimulus5.png"",""SampleStimulus6.png"",""SampleStimulus7.png"",""SampleStimulus8.png""]","1","","","","","","2","[""./rc_img/00006_ori.png"",""./rc_img/00006_inv.png"",""./rc_img/00001_inv.png"",""./rc_img/00001_ori.png""]","","",""
"best-RC","html-button-response","12","14400","0.0-12.0","","","","1","","","","","","","","","","","","566","[""SampleStimulus5.png"",""SampleStimulus6.png"",""SampleStimulus7.png"",""SampleStimulus8.png""]","2","","","","","","2","[""./rc_img/00004_ori.png"",""./rc_img/00004_inv.png"",""./rc_img/00002_ori.png"",""./rc_img/00002_inv.png""]","","",""
"street view slide show","image-button-response","13","15415","0.0-13.0","","","","1","","","","","","","","","","","","null","stimulus/SampleStimulus13.png","null","","","","","","3","","","",""
"street view slide show","image-button-response","14","16434","0.0-14.0","","","","1","","","","","","","","","","","","null","stimulus/SampleStimulus14.png","null","","","","","","3","","","",""
"street view slide show","image-button-response","15","17444","0.0-15.0","","","","1","","","","","","","","","","","","null","stimulus/SampleStimulus15.png","null","","","","","","3","","","",""
"street view slide show","image-button-response","16","18447","0.0-16.0","","","","1","","","","","","","","","","","","null","stimulus/SampleStimulus16.png","null","","","","","","3","","","",""
"page after slideshow","survey-text","17","19137","0.0-17.0","","","","1","","","","","","","","","","","","685","[""SampleStimulus13.png"",""SampleStimulus14.png"",""SampleStimulus15.png"",""SampleStimulus16.png""]","{""Q0"":""""}","","","","","","3","","","",""
"best-RC","html-button-response","18","19796","0.0-18.0","","","","1","","","","","","","","","","","","654","[""SampleStimulus13.png"",""SampleStimulus14.png"",""SampleStimulus15.png"",""SampleStimulus16.png""]","2","","","","","","3","[""./rc_img/00003_inv.png"",""./rc_img/00003_ori.png"",""./rc_img/00005_inv.png"",""./rc_img/00005_ori.png""]","","",""
"best-RC","html-button-response","19","20404","0.0-19.0","","","","1","","","","","","","","","","","","604","[""SampleStimulus13.png"",""SampleStimulus14.png"",""SampleStimulus15.png"",""SampleStimulus16.png""]","1","","","","","","3","[""./rc_img/00007_ori.png"",""./rc_img/00007_inv.png"",""./rc_img/00008_ori.png"",""./rc_img/00008_inv.png""]","","",""
"half-way","html-button-response","20","21883","0.0-20.0","","","","1","","","","","","","","","","","","1476","
            <h3>You are now half way through the study.</h3>
            <p>Please take a quick, 15-second break before you continue.</p>
            <img src='assets/img/countdown-15.gif'>
            <p>The study will automatically advance forward after the countdown is complete. However, you may click ""Next"" to advance forward now if you wish.</p>
        ","0","","","","","","","","","",""
"street view slide show","image-button-response","21","22900","0.0-21.0","","","","1","","","","","","","","","","","","null","stimulus/SampleStimulus1.png","null","","","","","","0","","","",""
"street view slide show","image-button-response","22","23907","0.0-22.0","","","","1","","","","","","","","","","","","null","stimulus/SampleStimulus2.png","null","","","","","","0","","","",""
"street view slide show","image-button-response","23","24914","0.0-23.0","","","","1","","","","","","","","","","","","null","stimulus/SampleStimulus3.png","null","","","","","","0","","","",""
"street view slide show","image-button-response","24","25920","0.0-24.0","","","","1","","","","","","","","","","","","null","stimulus/SampleStimulus4.png","null","","","","","","0","","","",""
"page after slideshow","survey-text","25","26762","0.0-25.0","","","","1","","","","","","","","","","","","838","[""SampleStimulus1.png"",""SampleStimulus2.png"",""SampleStimulus3.png"",""SampleStimulus4.png""]","{""Q0"":""""}","","","","","","0","","","",""
"attention-check","html-button-response","26","27687","0.0-26.0","","","","1","","","","","","","","","","","","919","[""SampleStimulus1.png"",""SampleStimulus2.png"",""SampleStimulus3.png"",""SampleStimulus4.png""]","3","","","","","","0","[""./assets/img/attnchk_ori.png"",""./assets/img/attnchk_ori.png"",""./assets/img/attnchk_ori.png"",""./assets/img/attnchk_inv.png""]","true","",""
"best-RC","html-button-response","27","28215","0.0-27.0","","","","1","","","","","","","","","","","","522","[""SampleStimulus1.png"",""SampleStimulus2.png"",""SampleStimulus3.png"",""SampleStimulus4.png""]","1","","","","","","0","[""./rc_img/00006_ori.png"",""./rc_img/00006_inv.png"",""./rc_img/00001_inv.png"",""./rc_img/00001_ori.png""]","","",""
"best-RC","html-button-response","28","28627","0.0-28.0","","","","1","","","","","","","","","","","","407","[""SampleStimulus1.png"",""SampleStimulus2.png"",""SampleStimulus3.png"",""SampleStimulus4.png""]","2","","","","","","0","[""./rc_img/00004_ori.png"",""./rc_img/00004_inv.png"",""./rc_img/00002_ori.png"",""./rc_img/00002_inv.png""]","","",""
"street view slide show","image-button-response","29","29635","0.0-29.0","","","","1","","","","","","","","","","","","null","stimulus/SampleStimulus9.png","null","","","","","","1","","","",""
"street view slide show","image-button-response","30","30644","0.0-30.0","","","","1","","","","","","","","","","","","null","stimulus/SampleStimulus10.png","null","","","","","","1","","","",""
"street view slide show","image-button-response","31","31657","0.0-31.0","","","","1","","","","","","","","","","","","null","stimulus/SampleStimulus11.png","null","","","","","","1","","","",""
"street view slide show","image-button-response","32","32663","0.0-32.0","","","","1","","","","","","","","","","","","null","stimulus/SampleStimulus12.png","null","","","","","","1","","","",""
"page after slideshow","survey-text","33","34056","0.0-33.0","","","","1","","","","","","","","","","","","1389","[""SampleStimulus9.png"",""SampleStimulus10.png"",""SampleStimulus11.png"",""SampleStimulus12.png""]","{""Q0"":""""}","","","","","","1","","","",""
"best-RC","html-button-response","34","34680","0.0-34.0","","","","1","","","","","","","","","","","","617","[""SampleStimulus9.png"",""SampleStimulus10.png"",""SampleStimulus11.png"",""SampleStimulus12.png""]","1","","","","","","1","[""./rc_img/00003_inv.png"",""./rc_img/00003_ori.png"",""./rc_img/00005_inv.png"",""./rc_img/00005_ori.png""]","","",""
"best-RC","html-button-response","35","35142","0.0-35.0","","","","1","","","","","","","","","","","","457","[""SampleStimulus9.png"",""SampleStimulus10.png"",""SampleStimulus11.png"",""SampleStimulus12.png""]","2","","","","","","1","[""./rc_img/00007_ori.png"",""./rc_img/00007_inv.png"",""./rc_img/00008_ori.png"",""./rc_img/00008_inv.png""]","","",""
"demographics","survey-html-form","36","36731","0.0-36.0","","","","1","","","","","","","","","","","","1584","","{""age"":"""",""gender-self-describe"":"""",""zipcode"":""""}","","","","","","","","","",""
"demographics-list","survey","37","45450","0.0-37.0","","","","1","","","","","","","","","","","","8483","","{""P0_Q0"":null,""race-ethnicity"":[],""education"":"""",""P1_Q0"":null,""ideology"":"""",""P2_Q0"":null,""num-moves"":"""",""P3_Q0"":null,""social-ladder"":null}","","","","","","","","","[]",""
"end-survey","survey-text","38","47110","0.0-38.0","","","","1","","","","","","","","","","","","1644","","{""Q0"":""""}","","","","","","","","","","1"
